File: Data/HeatCapacity/IQM_IQMPPMS_20200218_1_TB_0-DRHCtry2.dat
[Header]
TITLE	IQM_IQMPPMS_20200218_1_TB_0-DRHCtry2.dat
BYAPP	HeatCapacity	3.8.14	1.7
INFO	2.34	MASS:Sample Mass (mg)
INFO	0	MASSERR:Sample Mass Error (mg)
INFO	0	MOLWGHT:Formula Weight (g/mole)
INFO	0	ATOMS:Atoms per Formula Unit
INFO	PPMS Heat Capacity Option 3.8.14 Build 19	APPNAME
DATATYPE	TIME	1
DATATYPE	COMMENT	2
STARTUPAXIS	 X	8	 LINEAR	 AUTO
STARTUPAXIS	 Y1	10	 LINEAR	 AUTO
[Data]
Time Stamp (Seconds)	Comment ()	System Status (Code)	Puck Temp (Kelvin)	System Temp (Kelvin)	Field (Oersted)	Pressure (Torr)	Sample Temp (Kelvin)	Temp Rise (Kelvin)	Samp HC (J/g-K)	Samp HC Err (J/g-K)	Addenda HC (?J/K)	Addenda HC Err (?J/K)	Total HC (?J/K)	Total HC Err (?J/K)	Fit Deviation (ChiSquare)	Time Const tau1 (seconds)	Time Const tau2 (seconds)	Sample Coupling (Percent)	Debye Temp (Kelvin)	Debye Temp Err (Kelvin)	Cal Correction (Factor)	Therm Resist (Ohms)	Htr Resist (Ohms)	Puck Resist (Ohms)	Wire Cond (W/K)	Meas Time (seconds)	Temp Squared (K^2)	Samp HC/Temp (J/g-K/K)	Addenda Offset HC (?J/K)
4306685.22	CALFILE: DRPuck50_1.cal - Addenda #16 measured on 2/14/2020 from 0.087938 to 3.6029 K
4306685.52		4881	0	0.1099	90000.148	9.20E-06	0.0985369	0.001625306	0.000187331	1.98E-06	0.00099092	0.0001217	0.439346	0.004642	0.444938	116.708	0.005471613	97.8717	0	0	1				3.85E-09	295.3303	0.009709515	0.00190113	0
4307918.5		4881	0	0.11	90000.148	9.40E-06	0.0986684	0.001794883	0.0001802	1.50E-06	0.000993408	0.0001207	0.4226625	0.003499	0.699581	113.4767	0.005954854	97.7101	0	0	1				3.81E-09	350.1229	0.009735462	0.001826323	0
4309962.64		4881	0	0.1099	90000.148	9.30E-06	0.098529	0.001810773	0.000174525	1.74E-06	0.00099044	0.0001219	0.4093786	0.004065	0.935685	114.213	0.008294036	96.8957	0	0	1				3.70E-09	340.4301	0.009707971	0.001771304	0
4312026.42		4881	0	0.12	90000.148	9.20E-06	0.107122	0.001908746	0.000155629	1.83E-06	0.001196782	-1.66E-06	0.365369	0.004271	1.3905	80.7175	0.005595938	97.83	0	0	1				4.63E-09	250.8271	0.0114752	0.001452819	0
4312728.3		4881	0	0.12	90000.148	9.30E-06	0.107066	0.001863161	0.000156764	1.72E-06	0.001196208	-1.34E-06	0.3680244	0.004029	0.737282	82.447	0.008039184	96.8951	0	0	1				4.61E-09	242.1524	0.0114631	0.001464182	0
4313649.19		4881	0	0.12	90000.148	9.40E-06	0.107058	0.001892644	0.000158657	1.69E-06	0.001196043	-1.25E-06	0.372453	0.003957	0.862647	82.0334	0.003532623	98.63631	0	0	1				4.60E-09	247.341	0.0114615	0.001481968	0
4316416.75		4881	0	0.1319	90000.148	9.30E-06	0.117432	0.00214368	0.000131554	1.60E-06	0.001209723	-2.66E-07	0.309047	0.00374	0.854923	59.8557	0.00615671	97.2896	0	0	1				5.31E-09	182.4907	0.0137902	0.001120261	0
4316941.91		4881	0	0.132	90000.148	9.30E-06	0.117503	0.002152574	0.000128968	1.61E-06	0.001210227	-5.16E-08	0.302995	0.003759	1.38971	57.724	0.004927183	97.8071	0	0	1				5.37E-09	179.5671	0.0138069	0.001097575	0
4317450.09		4881	0	0.132	90000.148	9.30E-06	0.117481	0.002165866	0.000129075	1.69E-06	0.001210215	-5.66E-08	0.303247	0.003949	1.03157	60.5976	0.006696939	97.1391	0	0	1				5.15E-09	173.1721	0.0138018	0.001098691	0
4318539.2		4881	0	0.144	90000.148	9.30E-06	0.128139	0.002332313	0.000107557	9.00E-07	0.001366131	7.19E-05	0.253049	0.002107	0.876011	41.1985	0.00439014	97.9753	0	0	1				6.27E-09	127.9175	0.0164195	0.000839377	0
4318863.33		4881	0	0.1439	90000.148	9.30E-06	0.128085	0.002312398	0.000107999	9.21E-07	0.001365485	7.16E-05	0.254083	0.002154	0.935755	41.7895	0.004393226	97.9939	0	0	1				6.20E-09	123.5955	0.0164058	0.000843181	0
4319191.38		4881	0	0.144	90000.148	9.40E-06	0.128155	0.002329481	0.000108409	9.85E-07	0.001366516	7.21E-05	0.255044	0.002305	1.43091	42.3287	0.005059782	97.7054	0	0	1				6.17E-09	125.3685	0.0164237	0.000845925	0
4320028.02		4881	0	0.158	90000.148	9.40E-06	0.14029	0.002568735	8.99E-05	9.29E-07	0.001513049	0.0001402	0.211991	0.002174	1.25925	30.2489	0.005751723	97.2428	0	0	1				7.20E-09	89.78071	0.0196813	0.000641155	0
4320274.41		4881	0	0.158	90000.148	9.30E-06	0.140327	0.002589054	9.04E-05	9.22E-07	0.001513371	0.0001402	0.213104	0.002158	1.12291	29.9767	0.004195623	97.9752	0	0	1				7.25E-09	90.74657	0.01969179	0.000644374	0
4320519.41		4881	0	0.158	90000.148	9.30E-06	0.140395	0.002546345	9.18E-05	1.01E-06	0.001514081	0.0001403	0.216339	0.002352	0.921565	30.3064	0.004143542	97.9935	0	0	1				7.28E-09	89.93021	0.0197108	0.000653909	0
4321181.61		4881	0	0.1731	90000.148	9.40E-06	0.153643	0.002773198	7.74E-05	1.14E-06	0.00160479	4.33E-05	0.182654	0.002656	1.876819	21.7936	0.004725201	97.4474	0	0	1				8.60E-09	63.04017	0.0236061	0.00050358	0
4321370.64		4881	0	0.173	90000.148	9.40E-06	0.153705	0.002872013	7.65E-05	1.02E-06	0.00160532	4.30E-05	0.180688	0.002387	1.04469	21.9526	0.004860807	97.4212	0	0	1				8.44E-09	65.3807	0.0236254	0.000497908	0
4321560.27		4881	0	0.173	90000.148	9.30E-06	0.1536786	0.002967447	7.49E-05	9.28E-07	0.001605222	4.31E-05	0.1767671	0.002171	1.57315	22.5762	0.006596313	96.6443	0	0	1				8.10E-09	65.85794	0.0236171	0.000487091	0
4322131.64		4881	0	0.1901	90000.148	9.30E-06	0.168705	0.003153842	6.44E-05	1.01E-06	0.001859722	0.000165	0.152532	0.002369	1.18937	15.341	0.003840509	97.8785	0	0	1				1.02E-08	46.43392	0.0284612	0.000381672	0
4322272.69		4881	0	0.19	90000.148	9.40E-06	0.1687114	0.003224843	6.31E-05	9.67E-07	0.001859927	0.0001651	0.149464	0.002262	1.10166	15.3671	0.004397787	97.6172	0	0	1				9.96E-09	46.02308	0.0284635	0.000373886	0
4322414.36		4881	0	0.1901	90000.148	9.30E-06	0.168719	0.003098733	6.61E-05	1.06E-06	0.001859849	0.0001651	0.156529	0.002477	1.060515	15.2896	0.002340242	98.6797	0	0	1				1.04E-08	46.10124	0.028466	0.000391763	0
4322870.86		4881	0	0.2081	90000.148	9.30E-06	0.184435	0.003516552	5.47E-05	1.06E-06	0.002008992	8.39E-05	0.130108	0.002471	1.21765	11.2568	0.003230748	98.0774	0	0	1				1.18E-08	33.68209	0.0340161	0.000296816	0
4322984.27		4881	0	0.2081	90000.148	9.20E-06	0.184405	0.003531524	5.42E-05	1.12E-06	0.002008729	8.41E-05	0.1288708	0.00262	0.954243	11.2675	0.004818727	97.1357	0	0	1				1.18E-08	33.77029	0.0340051	0.000293998	0
4323096.88		4881	0	0.208	90000.148	9.40E-06	0.184453	0.003437253	5.47E-05	1.14E-06	0.002008896	8.40E-05	0.129898	0.002655	1.18428	10.5683	0.001787692	98.8772	0	0	1				1.24E-08	33.80236	0.0340231	0.000296299	0
4323484.67		4881	0	0.227	90000.148	9.30E-06	0.201269	0.003728838	4.60E-05	1.31E-06	0.002342329	1.08E-05	0.109995	0.003055	1.65541	7.99284	0.004021275	97.53	0	0	1				1.41E-08	23.14304	0.040509	0.000228578	0
4323575.09		4881	0	0.2271	90000.148	9.40E-06	0.201221	0.003899654	4.61E-05	1.05E-06	0.002341754	1.09E-05	0.110105	0.002466	1.045121	8.499372	0.0051473	97.0084	0	0	1				1.33E-08	23.97852	0.0404899	0.000228866	0
4323669.94		4881	0	0.2271	90000.148	9.30E-06	0.20129	0.00388729	4.71E-05	1.05E-06	0.002342548	1.08E-05	0.112484	0.002466	1.1831	8.26979	0.003710212	97.7534	0	0	1				1.39E-08	25.49812	0.0405176	0.000233836	0
4324030.86		4881	0	0.2491	90000.148	9.30E-06	0.220675	0.004209999	3.95E-05	1.27E-06	0.002473515	-2.38E-05	0.0950164	0.002974	1.0455	5.87738	0.00290257	98.0168	0	0	1				1.65E-08	17.68158	0.04869738	0.000179215	0
4324102.13		4881	0	0.2491	90000.148	9.40E-06	0.220801	0.004170148	4.03E-05	1.33E-06	0.002474064	-2.36E-05	0.096679	0.003104	1.5922	6.10764	0.004760179	96.7808	0	0	1				1.63E-08	17.63215	0.048753	0.00018233	0
4324245.69		4881	0	0.249	90000.148	9.20E-06	0.220854	0.004169162	4.03E-05	1.18E-06	0.002474054	-2.36E-05	0.0966625	0.002754	1.124556	5.7318	0.001996166	98.5856	0	0	1				1.71E-08	18.32291	0.0487766	0.000182254	0
4324492.88		4881	0	0.2733	90000.148	9.20E-06	0.242097	0.004966488	3.58E-05	1.06E-06	0.002977789	0.0002584	0.0866557	0.00248	0.862109	4.42311	0.002530666	98.2492	0	0	1				1.99E-08	17.19539	0.0586111	0.000147708	0
4324556.28		4881	0	0.2729	90000.148	9.40E-06	0.2419	0.00461747	3.50E-05	1.33E-06	0.00297467	0.0002568	0.0849103	0.003101	1.25767	4.621649	0.005252079	96.5341	0	0	1				1.90E-08	13.26932	0.0585157	0.000144751	0
4324619.69		4881	0	0.2732	90000.148	9.20E-06	0.241871	0.004709313	3.39E-05	1.13E-06	0.002972563	0.0002556	0.0821823	0.00265	1.18909	4.286553	0.003511185	97.6008	0	0	1				1.96E-08	13.86495	0.0585016	0.000139952	0
4324898.92		4881	0	0.2991	90000.148	9.30E-06	0.265059	0.004851481	3.00E-05	7.34E-07	0.003580288	0.0003416	0.0738211	0.001717	1.3469	3.25872	0.004254496	97.1022	0	0	1				2.33E-08	9.383486	0.0702563	0.000113248	0
4324950.63		4881	0	0.2989	90000.148	9.40E-06	0.265151	0.004926341	3.02E-05	7.13E-07	0.003582539	0.0003413	0.0743004	0.001669	1.13237	3.25493	0.0038997	97.331	0	0	1				2.34E-08	9.776158	0.0703052	0.000113978	0
4325000.98		4881	0	0.2991	90000.148	9.30E-06	0.265048	0.004934831	3.00E-05	6.96E-07	0.003580264	0.0003416	0.0737541	0.001628	1.30556	3.27218	0.004890789	96.6733	0	0	1				2.32E-08	9.7648	0.0702504	0.000113145	0
4325269.55		4881	0	0.3271	90000.148	9.40E-06	0.289609	0.005330351	2.62E-05	7.50E-07	0.004297462	0.0004598	0.0655701	0.001754	1.11572	2.49651	0.004379413	97.0709	0	0	1				2.70E-08	7.161777	0.0838733	9.04E-05	0
4325315.34		4881	0	0.3271	90000.148	9.40E-06	0.289826	0.00530686	2.64E-05	8.17E-07	0.004302744	0.0004614	0.0659619	0.001912	1.261268	2.33185	0.001762065	98.749	0	0	1				2.86E-08	7.489516	0.0839994	9.09E-05	0
4325361.17		4881	0	0.327	90000.148	9.30E-06	0.289764	0.005138008	2.68E-05	8.50E-07	0.004300493	0.0004607	0.0669539	0.001988	1.3396	2.35277	0.000654728	99.5354	0	0	1				2.86E-08	6.995546	0.083963	9.24E-05	0
4325578.09		4881	0	0.358	90000.148	9.30E-06	0.317416	0.006231269	2.34E-05	7.20E-07	0.004683194	0.0005293	0.0593483	0.001686	1.00637	1.82822	0.002467623	98.1181	0	0	1				3.30E-08	7.0583	0.100753	7.36E-05	0
4325616.64		4881	0	0.3582	90000.148	9.20E-06	0.317019	0.005678242	2.33E-05	9.29E-07	0.004682598	0.0005299	0.0592472	0.002174	0.842724	1.82474	0.002337513	98.2178	0	0	1				3.30E-08	5.484664	0.1005009	7.36E-05	0
4325654.2		4881	0	0.3581	90000.148	9.20E-06	0.316977	0.005683425	2.35E-05	9.77E-07	0.004682595	0.0005299	0.059693	0.002287	1.34008	1.91192	0.004608554	96.5827	0	0	1				3.22E-08	5.474235	0.100474	7.42E-05	0
4325902.91		4881	0	0.392	90000.148	9.30E-06	0.347627	0.005783125	2.20E-05	1.04E-06	0.005296846	0.0003561	0.0567278	0.002427	1.09241	1.41025	0.001734937	98.5328	0	0	1				4.07E-08	4.055488	0.120845	6.32E-05	0
4325938.2		4881	0	0.3919	90000.148	9.40E-06	0.347603	0.006053172	2.11E-05	1.05E-06	0.005297221	0.000356	0.0546168	0.002454	0.794671	1.42223	0.0036077	97.0476	0	0	1				3.94E-08	4.230755	0.120828	6.06E-05	0
4325975.13		4881	0	0.392	90000.148	9.30E-06	0.347726	0.006014292	2.14E-05	1.10E-06	0.005299916	0.0003553	0.0553919	0.002575	1.30331	1.3701	0.000559924	99.5263	0	0	1				4.06E-08	4.266692	0.120913	6.16E-05	0
4326186.48		4881	0	0.4301	90000.148	9.30E-06	0.382081	0.006770535	1.95E-05	6.38E-07	0.006586357	0.0003044	0.0523138	0.001463	1.04005	1.07144	0	100	0	0	1				4.88E-08	4.110293	0.145986	5.11E-05	0
4326218.39		4881	0	0.43	90000.148	9.40E-06	0.381649	0.006590683	1.88E-05	5.59E-07	0.006575537	0.0003032	0.0506705	0.001309	0.700699	1.16734	0.005437199	95.7803	0	0	1				4.49E-08	3.214324	0.145656	4.94E-05	0
4326252.33		4881	0	0.43	90000.148	9.20E-06	0.381832	0.006646082	1.95E-05	6.12E-07	0.006581125	0.0003038	0.0522621	0.001432	1.11841	1.12418	0.002423091	98.0207	0	0	1				4.72E-08	3.502019	0.145796	5.11E-05	0
4326502.19		4881	0	0.47	90000.148	9.30E-06	0.417988	0.007727446	1.81E-05	7.96E-07	0.007941539	0.0004964	0.0502715	0.001862	1.18738	0.954877	0.004435848	96.4527	0	0	1				5.40E-08	3.372547	0.174714	4.33E-05	0
4326534.16		4881	0	0.4701	90000.148	9.20E-06	0.417699	0.007290391	1.79E-05	7.99E-07	0.007932033	0.0004947	0.0498192	0.00187	1.42046	0.985785	0.007254036	94.362	0	0	1				5.27E-08	2.864632	0.174472	4.29E-05	0
4326567.63		4881	0	0.4702	90000.148	9.40E-06	0.417994	0.006914144	1.81E-05	1.18E-06	0.007940273	0.0004962	0.0503778	0.002715	1.14248	0.865714	0	100	0	0	1				5.82E-08	2.957355	0.174719	4.34E-05	0
4326773.47		4881	0	0.5149	90000.148	9.30E-06	0.457997	0.008177003	1.66E-05	6.86E-07	0.0094962	0.000584	0.0484148	0.001605	1.0872	0.7436052	0.001614741	98.617	0	0	1				6.57E-08	2.597142	0.209761	3.63E-05	0
4326802.33		4881	0	0.515	90000.148	9.20E-06	0.457698	0.007540481	1.71E-05	7.90E-07	0.009482231	0.0005847	0.0494512	0.00185	1.34975	0.761156	0.001460264	98.7573	0	0	1				6.55E-08	2.230816	0.209488	3.73E-05	0
4326832.44		4881	0	0.5151	90000.148	9.30E-06	0.457985	0.00783095	1.63E-05	7.26E-07	0.0094979	0.0005839	0.04771341	0.001699	0.826698	0.7826648	0.004710419	96.1808	0	0	1				6.25E-08	2.283467	0.20975	3.57E-05	0
4327038.17		4881	0	0.5642	90000.148	9.40E-06	0.5019703	0.009091963	1.60E-05	7.20E-07	0.011613	0.000626	0.0489404	0.001685	1.155	0.658879	0.003219862	97.2867	0	0	1				7.55E-08	2.347994	0.251974	3.18E-05	0
4327068.34		4881	0	0.5641	90000.148	9.30E-06	0.50183	0.007814125	1.65E-05	1.39E-06	0.0116022	0.0006251	0.0501632	0.003189	1.11283	0.609329	0	100	0	0	1				8.23E-08	1.976637	0.2518338	3.28E-05	0
4327096.83		4881	0	0.564	90000.148	9.40E-06	0.501668	0.008028074	1.64E-05	7.92E-07	0.0115924	0.0006242	0.0500488	0.001854	1.3518	0.655832	0.002294851	98.0264	0	0	1				7.72E-08	1.827987	0.251671	3.28E-05	0
4327302.92		4881	0	0.618	90000.148	9.30E-06	0.550377	0.009232839	1.64E-05	8.85E-07	0.0141952	0.0008383	0.0526439	0.00207	1.16612	0.590498	0.003812505	96.7126	0	0	1				9.08E-08	1.967495	0.302915	2.99E-05	0
4327331.78		4881	0	0.6181	90000.148	9.30E-06	0.550205	0.008998542	1.61E-05	8.92E-07	0.0141827	0.0008374	0.0519432	0.002087	1.28157	0.5740545	0.000984835	99.13523	0	0	1				9.09E-08	1.771495	0.302726	2.93E-05	0
4327361.23		4881	0	0.6182	90000.148	9.20E-06	0.550261	0.008612913	1.60E-05	1.13E-06	0.0141895	0.0008379	0.0516853	0.002509	0.719947	0.5570028	0	100	0	0	1				9.28E-08	1.722163	0.302787	2.91E-05	0
4327565.94		4881	0	0.6771	90000.148	9.40E-06	0.60299	0.009845902	1.63E-05	8.91E-07	0.0168531	0.0008473	0.0549251	0.002086	0.921565	0.550409	0.005857506	95.0004	0	0	1				1.02E-07	1.671008	0.363597	2.70E-05	0
4327596.06		4881	0	0.6772	90000.148	9.30E-06	0.603122	0.009359391	1.65E-05	1.62E-06	0.0168593	0.0008466	0.0553533	0.003683	1.36993	0.513708	0	100	0	0	1				1.08E-07	1.651226	0.3637557	2.73E-05	0
4327622.84		4881	0	0.6771	90000.148	9.30E-06	0.6030467	0.009299309	1.65E-05	1.39E-06	0.0168786	0.0008444	0.0555763	0.003242	1.0352	0.516742	0.000768868	99.2965	0	0	1				1.08E-07	1.541124	0.363665	2.74E-05	0
4327824.36		4881	0	0.7411	90000.148	9.30E-06	0.661185	0.0105716	1.68E-05	7.77E-07	0.0204267	0.0006834	0.0596462	0.001819	0.72841	0.50365	0.003672821	96.7744	0	0	1				1.20E-07	1.550227	0.437166	2.53E-05	0
4327852.91		4881	0	0.7411	90000.148	9.40E-06	0.661196	0.009823071	1.80E-05	1.17E-06	0.0204207	0.0006833	0.0624571	0.002646	0.715273	0.482663	0	100	0	0	1				1.29E-07	1.510949	0.43718	2.72E-05	0
4327880		4881	0	0.7412	90000.148	9.20E-06	0.660982	0.01024182	1.67E-05	7.93E-07	0.0204096	0.000683	0.0595509	0.001856	1.01836	0.51225	0.004026245	96.5256	0	0	1				1.18E-07	1.44799	0.436897	2.53E-05	0
4328081.72		4881	0	0.8112	90000.148	9.30E-06	0.7245133	0.01156654	1.81E-05	9.50E-07	0.0260002	0.0009141	0.0682967	0.002222	0.689632	0.49535	0.003032402	97.4185	0	0	1				1.39E-07	1.53675	0.52492	2.49E-05	0
4328109.81		4881	0	0.8112	90000.148	9.40E-06	0.724424	0.0111393	1.85E-05	9.75E-07	0.0259888	0.0009134	0.069216	0.002282	1.0307	0.494045	0.003785583	96.7545	0	0	1				1.42E-07	1.48605	0.524789	2.55E-05	0
4328137.69		4881	0	0.8111	90000.148	9.40E-06	0.7241562	0.0114767	1.76E-05	9.29E-07	0.0259744	0.0009126	0.06725294	0.002174	1.020737	0.511102	0.006518424	94.6853	0	0	1				1.34E-07	1.482135	0.5244022	2.44E-05	0
4328340.14		4881	0	0.888	90000.148	9.30E-06	0.794072	0.0123127	2.17E-05	1.16E-06	0.0326116	0.001218	0.0834261	0.002721	0.892487	0.513803	0.000991847	99.1909	0	0	1				1.63E-07	1.533307	0.63055	2.73E-05	0
4328368.66		4881	0	0.8882	90000.148	9.30E-06	0.794195	0.0123174	2.13E-05	1.20E-06	0.0326225	0.001218	0.0825415	0.002804	1.34874	0.503066	0.001648047	98.6344	0	0	1				1.65E-07	1.541408	0.630746	2.69E-05	0
4328396.38		4881	0	0.888	90000.148	9.30E-06	0.793669	0.0120766	2.15E-05	1.23E-06	0.0325928	0.001217	0.0829294	0.002887	0.7577797	0.541377	0.008988455	93.1546	0	0	1				1.57E-07	1.509198	0.62991	2.71E-05	0
4328600.09		4881	0	0.9732	90000.148	9.30E-06	0.870786	0.0131851	2.82E-05	1.15E-06	0.0400409	0.001232	0.106022	0.002694	1.18953	0.561906	0.003261623	97.5435	0	0	1				1.91E-07	1.624132	0.758269	3.24E-05	0
4328630.13		4881	0	0.9732	90000.148	9.30E-06	0.870825	0.0130124	2.83E-05	1.82E-06	0.0400567	0.001231	0.106164	0.004084	1.34106	0.5503056	0	100	0	0	1				1.93E-07	1.685717	0.758337	3.24E-05	0
4328659.61		4881	0	0.9733	90000.148	9.30E-06	0.870778	0.0132128	2.76E-05	1.16E-06	0.0400413	0.001232	0.104517	0.002703	1.28295	0.554985	0.005216206	96.0585	0	0	1				1.91E-07	1.650917	0.758254	3.16E-05	0
4328864.41		4881	0	1.0652	90000.148	9.30E-06	0.954475	0.0132089	4.05E-05	1.42E-06	0.0505708	0.001049	0.145274	0.003141	0.996189	0.646296	0	100	0	0	1				2.25E-07	1.664954	0.911023	4.24E-05	0
4328893.14		4881	0	1.0652	90000.148	9.30E-06	0.954825	0.01447	3.99E-05	8.63E-07	0.0506157	0.001051	0.143995	0.002018	1.16737	0.6606	0.00212458	98.5922	0	0	1				2.19E-07	1.938887	0.911691	4.18E-05	0
4328921.83		4881	0	1.065	90000.148	9.20E-06	0.955168	0.0145912	3.97E-05	9.72E-07	0.0506607	0.001052	0.143516	0.002274	1.47123	0.6495863	0.001047984	99.2944	0	0	1				2.22E-07	1.9818	0.912346	4.15E-05	0
4339780.92		4881	0	1.1671	90000.148	9.40E-06	1.04677	0.0138576	6.16E-05	2.92E-06	0.0655984	0.001679	0.209834	0.006613	2.19794	0.805804	0	100	0	0	1				2.60E-07	1.948759	1.09573	5.89E-05	0
4339812.2		4881	0	1.1672	90000.148	9.30E-06	1.0476	0.015505	6.06E-05	2.27E-06	0.0657676	0.001684	0.207518	0.005041	1.25328	0.814775	0	100	0	0	1				2.55E-07	2.417412	1.09747	5.78E-05	0
4339844		4881	0	1.1673	90000.148	9.30E-06	1.04838	0.015474	6.02E-05	2.51E-06	0.0658943	0.001687	0.206805	0.005624	1.03116	0.796413	0	100	0	0	1				2.60E-07	2.444324	1.09909	5.74E-05	0
4340685		4881	0	1.2783	90000.148	9.40E-06	1.14784	0.015333	9.39E-05	3.03E-06	0.0840855	0.002142	0.303712	0.007086	1.356074	1.118826	0.004647166	97.9229	0	0	1				2.74E-07	2.389238	1.31754	8.18E-05	0
4340719.11		4881	0	1.2779	90000.148	9.30E-06	1.1495	0.0175093	9.58E-05	2.43E-06	0.0843223	0.002149	0.308405	0.005258	1.02433	1.04978	0	100	0	0	1				2.94E-07	3.356478	1.32136	8.33E-05	0
4340753.22		4881	0	1.2782	90000.148	9.20E-06	1.149	0.0170386	9.72E-05	2.75E-06	0.08422418	0.002146	0.311678	0.00607	1.0181	1.07175	0	100	0	0	1				2.91E-07	3.149333	1.32019	8.46E-05	0
4341425.03		4881	0	1.3992	90000.148	9.30E-06	1.25863	0.01697347	0.000153242	3.51E-06	0.107053	0.002878	0.465639	0.008209	0.946054	1.46172	0.003536011	98.63	0	0	1				3.21E-07	3.215238	1.58415	0.000121753	0
4341556.56		4881	0	1.3992	90000.148	9.20E-06	1.26022	0.0190671	0.000153515	3.90E-06	0.107367	0.002887	0.466592	0.008659	0.857469	1.38933	0	100	0	0	1				3.36E-07	4.385175	1.588148	0.000121816	0
4341591.28		4881	0	1.3992	90000.148	9.40E-06	1.259832	0.0188022	0.000152067	3.71E-06	0.107275	0.002884	0.463112	0.008176	1.219801	1.39511	0	100	0	0	1				3.32E-07	4.167998	1.58718	0.000120704	0
4341810.97		4881	0	1.5323	90000.148	9.30E-06	1.380646	0.0181528	0.000237655	6.21E-06	0.1385095	0.003379	0.694623	0.01413	0.901913	1.837326	0	100	0	0	1				3.78E-07	4.185345	1.90618	0.000172133	0
4341848.94		4881	0	1.5322	90000.148	9.40E-06	1.38191	0.02089	0.000238481	5.16E-06	0.138839	0.003375	0.6968854	0.0116	1.4113	1.874325	0	100	0	0	1				3.72E-07	5.511978	1.90967	0.000172574	0
4341888.47		4881	0	1.5323	90000.148	9.30E-06	1.38212	0.0212966	0.000243263	4.03E-06	0.138853	0.003374	0.708088	0.009439	1.0991	1.916815	0.003067606	98.9817	0	0	1				3.72E-07	5.622975	1.910252	0.000176007	0
4342114.5		4881	0	1.678	90000.148	9.40E-06	1.51632	0.0212629	0.000364241	3.09E-06	0.182119	0.002234	1.034444	0.007223	0.888535	2.48286	0.002814352	99.2164	0	0	1				4.19E-07	5.750445	2.29922	0.000240215	0
4342158.23		4881	0	1.6782	90000.148	9.30E-06	1.517372	0.0230937	0.00036579	3.47E-06	0.182497	0.002235	1.03844	0.007806	0.813369	2.41755	0	100	0	0	1				4.30E-07	7.448573	2.30242	0.000241068	0
4342203.67		4881	0	1.6783	90000.148	9.40E-06	1.51713	0.0226518	0.000369032	3.26E-06	0.182401	0.002234	1.04594	0.007301	1.05429	2.419659	0	100	0	0	1				4.32E-07	7.252642	2.30168	0.000243244	0
4342432.23		4881	0	1.8367	90000.148	9.30E-06	1.66303	0.0224284	0.000532296	5.19E-06	0.2382495	0.003476	1.48382	0.01163	1.19659	3.07366	0	100	0	0	1				4.83E-07	7.258977	2.76566	0.000320077	0
4342481.5		4881	0	1.837	90000.148	9.20E-06	1.66438	0.0252228	0.000532106	4.52E-06	0.238686	0.003483	1.483814	0.009978	1.06466	3.09305	0	100	0	0	1				4.80E-07	9.22098	2.77017	0.000319701	0
4342531.56		4881	0	1.8365	90000.148	9.30E-06	1.664114	0.0252974	0.000531997	4.49E-06	0.238577	0.003482	1.48345	0.009915	0.995498	3.09387	0	100	0	0	1				4.79E-07	9.279143	2.76928	0.000319688	0
4342764.73		4881	0	2.0118	90000.148	9.30E-06	1.82547	0.0253174	0.000742858	6.98E-06	0.311489	0.004214	2.04978	0.01577	0.831812	3.822003	0	100	0	0	1				5.36E-07	9.281611	3.33235	0.000406941	0
4342817.84		4881	0	2.0123	90000.148	9.20E-06	1.82718	0.02861637	0.00074754	4.74E-06	0.312066	0.004222	2.06131	0.01108	1.13672	3.86544	0.001176652	99.7628	0	0	1				5.34E-07	11.46601	3.33859	0.000409122	0
4342872.09		4881	0	2.0119	90000.148	9.20E-06	1.82725	0.0288279	0.000749513	5.03E-06	0.312127	0.004223	2.06599	0.01176	1.32601	3.91244	0.002221238	99.5565	0	0	1				5.30E-07	11.59631	3.33882	0.000410188	0
4343131.28		4881	0	2.2029	90000.148	9.30E-06	2.00335	0.0293146	0.001007237	7.79E-06	0.414113	0.006433	2.77105	0.01823	1.09924	4.71764	0.00317575	99.46914	0	0	1				5.90E-07	11.73732	4.0134	0.000502777	0
4343192.58		4881	0	2.2036	90000.148	9.40E-06	2.004652	0.0314146	0.001015916	7.14E-06	0.414849	0.006437	2.79209	0.01541	1.16223	4.72471	0	100	0	0	1				5.91E-07	14.15293	4.01863	0.000506779	0
4343254		4881	0	2.2031	90000.148	9.30E-06	2.004901	0.032272	0.001009157	6.37E-06	0.414762	0.006436	2.77619	0.01491	0.87816	4.71095	0.000843234	99.8591	0	0	1				5.90E-07	14.17412	4.019628	0.000503345	0
4343501.86		4881	0	2.413	90000.148	9.40E-06	2.20342	0.0322799	0.001324838	5.65E-06	0.554903	0.003463	3.65502	0.01277	0.607965	5.51562	0	100	0	0	1				6.63E-07	14.13285	4.85508	0.000601263	0
4343568.69		4881	0	2.4132	90000.148	9.30E-06	2.20285	0.0347127	0.001325071	5.27E-06	0.554279	0.003472	3.65494	0.01184	2.02755	5.50196	0	100	0	0	1				6.64E-07	16.54685	4.85254	0.000601526	0
4343635.97		4881	0	2.4129	90000.148	9.40E-06	2.20195	0.0346625	0.001324792	5.35E-06	0.553586	0.003483	3.6536	0.01203	1.36906	5.51845	0	100	0	0	1				6.62E-07	16.50589	4.84859	0.000601645	0
4344235.55		4881	0	2.4001	90000.125	9.30E-06	2.19279	0.0348345	0.001291213	4.87E-06	0.54648	0.003605	3.56792	0.0108	0.86583	5.44259	0	100	0	0	1				6.56E-07	16.47407	4.80832	0.000588845	0
4344301.77		4881	0	2.3997	90000.125	9.20E-06	2.19301	0.0347535	0.001302414	4.95E-06	0.546672	0.003601	3.59432	0.01101	1.35213	5.50895	0	100	0	0	1				6.52E-07	16.32776	4.809274	0.000593895	0
4344367.66		4881	0	2.4006	90000.125	9.40E-06	2.19069	0.0349323	0.001299758	4.84E-06	0.544891	0.003635	3.58632	0.01072	1.62859	5.474201	0	100	0	0	1				6.55E-07	16.52685	4.79914	0.000593309	0
4344595.81		4881	0	2.4409	90000.125	9.40E-06	2.22881	0.0347458	0.001375225	5.99E-06	0.574842	0.003255	3.79287	0.01362	1.06064	5.65632	0	100	0	0	1				6.71E-07	16.4226	4.96758	0.000617023	0
4344662.27		4881	0	2.441	90000.125	9.30E-06	2.23014	0.03642617	0.0013605	3.97E-06	0.575653	0.003251	3.75922	0.009291	0.772222	5.67259	0.004348712	99.40731	0	0	1				6.66E-07	16.96896	4.97354	0.00061005	0
4344728.23		4881	0	2.4408	90000.125	9.30E-06	2.231	0.0365716	0.001362402	4.52E-06	0.576393	0.003246	3.76441	0.01057	1.63057	5.739599	0.005622129	99.2421	0	0	1				6.59E-07	17.01777	4.97738	0.000610668	0
4344954.75		4881	0	2.4828	90000.125	9.30E-06	2.2702	0.0357473	0.001430834	6.40E-06	0.608816	0.003179	3.95697	0.01464	1.19467	5.79891	0	100	0	0	1				6.82E-07	17.2188	5.15379	0.000630269	0
4345022.63		4881	0	2.4829	90000.125	9.20E-06	2.26869	0.0370392	0.001428437	4.67E-06	0.607087	0.003177	3.94963	0.01093	1.04467	5.83704	0.003049299	99.5977	0	0	1				6.79E-07	17.39672	5.14695	0.000629631	0
4345093.42		4881	0	2.4831	90000.125	9.20E-06	2.26854	0.0361482	0.001431399	5.80E-06	0.607305	0.003178	3.95678	0.0132	1.23932	5.814785	0	100	0	0	1				6.80E-07	17.51112	5.14629	0.000630977	0
4345323.58		4881	0	2.5236	90000.125	9.30E-06	2.31004	0.0361178	0.001488974	5.63E-06	0.642604	0.003305	4.126804	0.01275	0.878708	5.8954	0	100	0	0	1				7.00E-07	17.44435	5.3363	0.000644566	0
4345392.58		4881	0	2.5241	90000.125	9.20E-06	2.30602	0.0363666	0.001500214	5.44E-06	0.63917	0.003286	4.14967	0.0123	1.847786	5.94856	0	100	0	0	1				6.98E-07	17.6862	5.31774	0.000650563	0
4345461.48		4881	0	2.5241	90000.125	9.30E-06	2.30807	0.037057	0.001480584	6.05E-06	0.640977	0.003296	4.10554	0.01376	0.686126	5.9396	0	100	0	0	1				6.91E-07	17.84568	5.32718	0.000641482	0
4345692.88		4881	0	2.5659	90000.125	9.30E-06	2.34745	0.0369212	0.001551795	6.26E-06	0.675708	0.003543	4.30691	0.0142	1.16313	6.09071	0	100	0	0	1				7.07E-07	17.81879	5.51054	0.000661055	0
4345763.58		4881	0	2.5657	90000.125	9.40E-06	2.346051	0.0372982	0.001563942	5.91E-06	0.674501	0.003533	4.33413	0.01337	1.04644	6.13542	0	100	0	0	1				7.06E-07	18.27213	5.50396	0.000666627	0
4345833.78		4881	0	2.5662	90000.125	9.20E-06	2.34784	0.0385458	0.001550709	4.69E-06	0.675563	0.003542	4.30422	0.01098	1.02579	6.14558	0.002846286	99.64946	0	0	1				7.02E-07	18.40627	5.51237	0.000660482	0
4346064.45		4881	0	2.6068	90000.125	9.30E-06	2.38617	0.0387076	0.001609344	4.82E-06	0.7105182	0.003844	4.47638	0.01129	0.417165	6.27837	0.002764239	99.6698	0	0	1				7.15E-07	18.43674	5.69379	0.000674447	0
4346136.67		4881	0	2.6064	90000.125	9.30E-06	2.38482	0.0381274	0.001623909	5.88E-06	0.709708	0.003836	4.50965	0.01322	1.49869	6.28798	0	100	0	0	1				7.17E-07	18.83511	5.68736	0.000680936	0
4346209.31		4881	0	2.6069	90000.125	9.20E-06	2.3835	0.0380999	0.001620452	5.96E-06	0.7084767	0.003826	4.50033	0.01342	1.91953	6.26425	0	100	0	0	1				7.18E-07	18.86393	5.68108	0.000679862	0
4346441.67		4881	0	2.6481	90000.125	9.20E-06	2.42468	0.0385024	0.001670095	6.71E-06	0.747208	0.004151	4.65523	0.01513	1.02633	6.38736	0	100	0	0	1				7.29E-07	18.79275	5.87905	0.000688791	0
4346513.7		4881	0	2.648	90000.125	9.20E-06	2.42518	0.039752	0.001683124	5.25E-06	0.747328	0.004152	4.68584	0.01229	0.985428	6.4672	0.001976173	99.7718	0	0	1				7.26E-07	19.16208	5.88152	0.000694019	0
4346586.8		4881	0	2.6485	90000.125	9.30E-06	2.42312	0.0399613	0.001682214	5.07E-06	0.745161	0.004135	4.681542	0.01186	0.994941	6.442005	0.00240716	99.7205	0	0	1				7.28E-07	19.40161	5.87149	0.000694236	0
4347866		4881	0	2.6897	90000.125	9.40E-06	2.4632	0.0402484	0.001727129	5.51E-06	0.784213	0.004403	4.82569	0.0129	0.857895	6.58849	0.003681549	99.5887	0	0	1				7.35E-07	19.32601	6.06735	0.000701173	0
4347940.56		4881	0	2.6901	90000.125	9.40E-06	2.46444	0.0406225	0.001742093	5.82E-06	0.785233	0.004409	4.86173	0.01361	1.52166	6.58741	0.002645854	99.7031	0	0	1				7.40E-07	19.76547	6.07344	0.000706893	0
4348202.52		4881	0	2.6897	90000.125	9.30E-06	2.46181	0.0406888	0.001743418	5.52E-06	0.782674	0.004393	4.862273	0.01291	1.713713	6.60593	0.001907937	99.786	0	0	1				7.37E-07	19.76223	6.06052	0.000708185	0
4348435.89		4881	0	2.7311	90000.125	9.30E-06	2.5045	0.0411263	0.001784058	5.38E-06	0.8251052	0.004689	4.9998	0.01258	1.25827	6.74946	0.004195999	99.548	0	0	1				7.43E-07	19.8178	6.27252	0.000712341	0
4348509.97		4881	0	2.7309	90000.125	9.20E-06	2.49777	0.0414037	0.001798375	5.47E-06	0.818375	0.00464	5.02657	0.01279	0.95205	6.74522	0.004160538	99.5466	0	0	1				7.48E-07	20.24839	6.23887	0.000719992	0
4348583.81		4881	0	2.7318	90000.125	9.20E-06	2.5034	0.0415871	0.001784388	5.38E-06	0.823997	0.004681	4.99947	0.01259	1.39354	6.71501	0.003277431	99.6449	0	0	1				7.46E-07	20.23567	6.26699	0.000712787	0
4348819.34		4881	0	2.772	90000.125	9.30E-06	2.54256	0.0417017	0.001848761	5.77E-06	0.863967	0.004981	5.19007	0.01349	0.844141	6.88179	0.002441148	99.7441	0	0	1				7.56E-07	20.14502	6.46462	0.000727125	0
4348895.03		4881	0	2.7716	90000.125	9.30E-06	2.54024	0.0409053	0.001865641	7.11E-06	0.861848	0.004965	5.22745	0.01588	1.12551	6.83206	0	100	0	0	1				7.65E-07	20.64538	6.45283	0.000734434	0
4351324.67		4881	0	2.7719	90000.125	9.30E-06	2.53734	0.0418565	0.001863274	5.52E-06	0.858369	0.004938	5.21843	0.01291	0.971362	6.859837	0.001943822	99.7936	0	0	1				7.62E-07	20.49617	6.4381	0.000734341	0
4352816.55		4881	0	2.8136	90000.125	9.30E-06	2.5791	0.0423579	0.001926329	6.38E-06	0.902184	0.005277	5.40979	0.01492	1.29471	7.0638	0.002441618	99.751	0	0	1				7.67E-07	20.57951	6.65173	0.000746901	0
4352893.3		4881	0	2.8141	90000.125	9.20E-06	2.5811	0.0418695	0.001918959	7.70E-06	0.904821	0.005297	5.39518	0.01723	1.23003	6.97961	0	100	0	0	1				7.73E-07	21.19141	6.66205	0.000743467	0
4352970.33		4881	0	2.8146	90000.125	9.20E-06	2.57772	0.04174528	0.001923162	7.18E-06	0.901217	0.005269	5.40141	0.01596	0.9702983	6.97134	0	100	0	0	1				7.75E-07	20.93883	6.644651	0.00074607	0
4353575.41		4881	0	2.8551	90000.125	9.30E-06	2.61593	0.0430586	0.001974368	6.25E-06	0.942058	0.005582	5.56208	0.01463	1.180733	7.1117	0.002372995	99.7626	0	0	1				7.83E-07	20.91403	6.84306	0.000754749	0
4353653.19		4881	0	2.8545	90000.125	9.30E-06	2.61865	0.0422992	0.001972906	8.12E-06	0.945595	0.005609	5.56219	0.01815	1.62088	7.07763	0	100	0	0	1				7.86E-07	21.33509	6.85732	0.000753406	0
4353731.41		4881	0	2.8552	90000.125	9.30E-06	2.61809	0.0432104	0.001985808	6.43E-06	0.944452	0.005601	5.59124	0.01504	0.651342	7.123871	0.002385967	99.7612	0	0	1				7.86E-07	21.23288	6.85437	0.000758496	0
4353969.52		4881	0	2.8974	90000.125	9.20E-06	2.66217	0.0428322	0.002036764	8.91E-06	0.9946762	0.005967	5.7607	0.01998	1.429	7.23208	0	100	0	0	1				7.97E-07	21.37161	7.08716	0.000765076	0
4354048.47		4881	0	2.8965	90000.125	9.40E-06	2.6566	0.0443118	0.002043116	6.36E-06	0.987585	0.005917	5.768476	0.01488	0.960474	7.31049	0.003415698	99.6703	0	0	1				7.91E-07	21.69624	7.05751	0.000769072	0
4354128.27		4881	0	2.8974	90000.125	9.30E-06	2.65759	0.0446219	0.002039431	6.64E-06	0.988705	0.005925	5.76097	0.01555	0.663181	7.2903	0.001317116	99.8729	0	0	1				7.91E-07	21.93147	7.06276	0.0007674	0
4354369.47		4881	0	2.9381	90000.125	9.20E-06	2.69588	0.0436059	0.002107445	8.68E-06	1.03399	0.006232	5.96541	0.01933	1.36073	7.38565	0	100	0	0	1				8.08E-07	21.8709	7.26778	0.000781728	0
4354448.75		4881	0	2.9382	90000.125	9.20E-06	2.700817	0.0440885	0.002097107	2.68E-06	1.039905	0.00627	5.94713	0	1.20877	7.38323	0	100	0	0	1				8.05E-07	22.15696	7.29441	0.000776471	0
4354528.42		4881	0	2.9377	90000.125	9.40E-06	2.69818	0.0440227	0.002102323	8.21E-06	1.03674	0.00625	5.95617	0.01817	1.31206	7.362707	0	100	0	0	1				8.09E-07	22.14968	7.28015	0.000779165	0
4354770.52		4881	0	2.9792	90000.125	9.20E-06	2.73703	0.0440697	0.002172967	8.25E-06	1.08381	0.006556	6.16855	0.01815	0.805541	7.511727	0	100	0	0	1				8.21E-07	22.08812	7.49134	0.000793914	0
4354851.02		4881	0	2.979	90000.125	9.40E-06	2.73725	0.0461876	0.002146275	6.76E-06	1.08336	0.006553	6.10564	0.01581	1.42666	7.5792	0.005736122	99.4805	0	0	1				8.08E-07	22.53518	7.49256	0.000784098	0
4354931.69		4881	0	2.979	90000.125	9.40E-06	2.73679	0.0447261	0.00217141	8.99E-06	1.08331	0.006552	6.164407	0.01999	2.03152	7.45758	0	100	0	0	1				8.27E-07	22.73761	7.49002	0.000793415	0
4355172.75		4881	0	3.0207	90000.125	9.40E-06	2.77543	0.04464345	0.002235038	9.50E-06	1.13178	0.006871	6.36176	0.02113	0.8612046	7.64024	0	100	0	0	1				8.33E-07	22.37273	7.70302	0.000805294	0
4355254.47		4881	0	3.0208	90000.125	9.20E-06	2.77488	0.0453127	0.002237088	9.79E-06	1.13091	0.006865	6.3657	0.02186	1.546908	7.65403	0	100	0	0	1				8.32E-07	22.92072	7.699962	0.000806193	0
4355335.27		4881	0	3.0204	90000.125	9.40E-06	2.77706	0.0466	0.002225406	6.42E-06	1.133	0.006879	6.34045	0.01501	0.817388	7.65443	0.002708139	99.7587	0	0	1				8.30E-07	22.9621	7.71204	0.000801354	0
4355578.59		4881	0	3.0622	90000.125	9.30E-06	2.81627	0.0457417	0.002282737	9.08E-06	1.18417	0.007207	6.52577	0.01999	1.26294	7.7421	0	100	0	0	1				8.43E-07	22.96328	7.9314	0.000810552	0
4355660.34		4881	0	3.0626	90000.125	9.30E-06	2.81707	0.0458966	0.00229307	9.17E-06	1.18524	0.007213	6.55102	0.0202	1.29952	7.75699	0	100	0	0	1				8.45E-07	23.22631	7.93588	0.000813991	0
4355741.86		4881	0	3.0619	90000.125	9.30E-06	2.81794	0.0473178	0.002277632	7.41E-06	1.18567	0.007216	6.51533	0.01733	1.27652	7.74356	0.001329763	99.8846	0	0	1				8.42E-07	23.27096	7.94077	0.000808262	0
4355983.44		4881	0	3.1032	90000.125	9.30E-06	2.85636	0.046072	0.002340365	9.71E-06	1.23738	0.007528	6.71383	0.02144	1.2313	7.78016	0	100	0	0	1				8.63E-07	23.23069	8.15879	0.000819352	0
4356066.2		4881	0	3.1031	90000.125	9.30E-06	2.85468	0.0478192	0.002346901	6.81E-06	1.23456	0.007512	6.7263	0.01593	1.02702	7.90966	0.003306868	99.7207	0	0	1				8.52E-07	23.34047	8.14921	0.000822123	0
4356149.34		4881	0	3.1031	90000.125	9.40E-06	2.85665	0.0468287	0.00234934	8.77E-06	1.23767	0.00753	6.73512	0.01908	1.68513	7.870897	0	100	0	0	1				8.56E-07	23.72899	8.16047	0.00082241	0
4356393.41		4881	0	3.1454	90000.125	9.40E-06	2.89498	0.0468741	0.002396212	1.04E-05	1.29013	0.007817	6.89727	0.02291	0.797924	7.92502	0	100	0	0	1				8.70E-07	23.61269	8.38093	0.000827712	0
4356477.41		4881	0	3.1449	90000.125	9.20E-06	2.8966	0.0473674	0.002394434	9.07E-06	1.29244	0.007829	6.89541	0.01974	1.00356	7.94161	0	100	0	0	1				8.68E-07	23.77505	8.39029	0.000826636	0
4356560.64		4881	0	3.1443	90000.125	9.20E-06	2.89144	0.0485814	0.002408214	8.01E-06	1.28465	0.007789	6.91987	0.01874	1.07077	8.08016	0.006247451	99.48771	0	0	1				8.59E-07	23.82483	8.36041	0.000832878	0
4356804.78		4881	0	3.1863	90000.125	9.40E-06	2.93447	0.0482309	0.002450661	9.19E-06	1.34609	0.008084	7.08064	0.01993	1.28686	8.07911	0	100	0	0	1				8.76E-07	24.24048	8.61114	0.000835128	0
4356889.34		4881	0	3.1862	90000.125	9.20E-06	2.9346	0.04812949	0.002454052	9.53E-06	1.34623	0.008085	7.08871	0.02077	0.638134	8.03042	0	100	0	0	1				8.83E-07	24.23732	8.611901	0.000836246	0
4356973.23		4881	0	3.1861	90000.125	9.30E-06	2.93012	0.0481389	0.00244328	9.92E-06	1.33982	0.008056	7.05709	0.02178	0.883285	8.032565	0	100	0	0	1				8.79E-07	24.09127	8.58559	0.00083385	0
4357219.31		4881	0	3.228	90000.125	9.40E-06	2.97196	0.048073	0.002533286	1.05E-05	1.40068	0.008298	7.32857	0.02323	0.940883	8.2027	0	100	0	0	1				8.93E-07	24.09769	8.83252	0.000852397	0
4357304.39		4881	0	3.2278	90000.125	9.30E-06	2.97488	0.050381	0.002513932	7.78E-06	1.40407	0.008309	7.28667	0.0182	1.56706	8.27387	0.006183559	99.5189	0	0	1				8.83E-07	24.60811	8.84989	0.000845054	0
4357391.34		4881	0	3.228	90000.125	9.30E-06	2.97214	0.0491896	0.002529934	9.37E-06	1.40082	0.008298	7.320865	0.0203	1.12323	8.22859	0	100	0	0	1				8.90E-07	24.8216	8.83362	0.000851216	0
4357636.77		4881	0	3.2694	90000.125	9.20E-06	3.0115	0.0493521	0.002579526	9.38E-06	1.46002	0.008468	7.496107	0.02026	1.21338	8.32313	0	100	0	0	1				9.01E-07	24.68576	9.06912	0.000856559	0
4357724.03		4881	0	3.2686	90000.125	9.30E-06	3.0126	0.0497612	0.002583173	9.73E-06	1.46176	0.008472	7.50638	0.02114	1.08286	8.337944	0	100	0	0	1				9.00E-07	24.96938	9.07576	0.000857456	0
4357810.42		4881	0	3.2693	90000.125	9.30E-06	3.01423	0.0497495	0.002582342	9.88E-06	1.46426	0.008478	7.50694	0.0215	1.00009	8.33579	0	100	0	0	1				9.01E-07	25.01383	9.08561	0.000856716	0
4358058.67		4881	0	3.3099	90000.125	9.30E-06	3.05071	0.0510762	0.002646451	8.88E-06	1.52012	0.008583	7.71282	0.02078	1.55289	8.48544	0.004706585	99.6491	0	0	1				9.11E-07	25.00737	9.30681	0.000867488	0
4358146.88		4881	0	3.3099	90000.125	9.20E-06	3.0443	0.0506414	0.002645815	9.82E-06	1.51099	0.008569	7.7022	0.02133	1.828	8.41776	0	100	0	0	1				9.15E-07	25.45633	9.26775	0.000869105	0
4358234.25		4881	0	3.3102	90000.125	9.30E-06	3.05197	0.05026049	0.002635381	1.08E-05	1.52297	0.008588	7.68976	0.02387	1.5483	8.37911	0	100	0	0	1				9.18E-07	25.25327	9.31454	0.000863501	0
4358483.08		4881	0	3.3518	90000.125	9.20E-06	3.090949	0.050419	0.00269962	1.05E-05	1.585365	0.008667	7.90247	0.02294	2.08398	8.51872	0	100	0	0	1				9.28E-07	25.13733	9.55397	0.000873395	0
4358570.84		4881	0	3.352	90000.125	9.30E-06	3.09272	0.0522398	0.002706725	8.49E-06	1.58742	0.008669	7.92116	0.01987	0.970809	8.59033	0.004139585	99.69902	0	0	1				9.24E-07	25.55616	9.56492	0.000875192	0
4358659.47		4881	0	3.3522	90000.125	9.20E-06	3.09468	0.0526251	0.002687707	8.48E-06	1.59031	0.008672	7.87955	0.01983	1.31891	8.59527	0.005107915	99.6307	0	0	1				9.19E-07	25.771	9.57702	0.000868494	0
4358907.47		4881	0	3.393	90000.125	9.20E-06	3.13162	0.0528328	0.002754923	8.76E-06	1.651019	0.008727	8.09754	0.02051	1.68229	8.70948	0.00434331	99.69252	0	0	1				9.32E-07	25.78581	9.807063	0.000879711	0
4358995.39		4881	0	3.3928	90000.125	9.40E-06	3.13282	0.05340247	0.002728014	8.77E-06	1.65303	0.008729	8.03658	0.02052	1.26198	8.65286	0.005799489	99.5893	0	0	1				9.31E-07	26.12843	9.81457	0.000870785	0
4359084.41		4881	0	3.3928	90000.125	9.40E-06	3.1242	0.0515629	0.00276983	1.02E-05	1.63968	0.008718	8.12109	0.02215	1.19661	8.65426	0	100	0	0	1				9.38E-07	25.95857	9.76064	0.000886572	0
4359332.03		4881	0	3.4336	90000.125	9.30E-06	3.16957	0.0531957	0.002818051	8.64E-06	1.71466	0.008781	8.308902	0.02022	0.880653	8.78152	0.002743501	99.8091	0	0	1				9.47E-07	25.96279	10.0462	0.000889095	0
4359421.58		4881	0	3.4339	90000.125	9.30E-06	3.16939	0.05389068	0.002805449	8.75E-06	1.71446	0.008781	8.27921	0.02046	1.20919	8.79738	0.003673328	99.7455	0	0	1				9.43E-07	26.34456	10.045	0.00088517	0
4359509.75		4881	0	3.4338	90000.125	9.20E-06	3.17152	0.0539916	0.002799752	8.53E-06	1.71807	0.008784	8.26949	0.01995	1.02553	8.80013	0.004299701	99.7029	0	0	1				9.41E-07	26.39213	10.0585	0.00088278	0
4359760.27		4881	0	3.4758	90000.125	9.20E-06	3.21059	0.054316	0.002852952	8.98E-06	1.78489	0.008852	8.46079	0.02101	0.8905871	8.86157	0.001696055	99.885	0	0	1				9.55E-07	26.4004	10.3079	0.000888607	0
4359848.11		4881	0	3.4756	90000.125	9.40E-06	3.21116	0.05332286	0.002841583	1.02E-05	1.78694	0.008855	8.43625	0.02212	0.849382	8.79666	0	100	0	0	1				9.59E-07	26.58472	10.3116	0.000884908	0
4359937.02		4881	0	3.4753	90000.125	9.40E-06	3.20713	0.0545385	0.002853046	9.54E-06	1.77909	0.008845	8.45522	0.02233	1.50302	8.94241	0.006501448	99.5619	0	0	1				9.48E-07	26.38997	10.2857	0.000889596	0
4360191.2		4881	0	3.5174	90000.125	9.30E-06	3.246092	0.0535736	0.0029095	1.19E-05	1.84741	0.00894	8.65564	0.02639	0.7950216	8.92977	0	100	0	0	1				9.69E-07	26.82724	10.5371	0.000896308	0
4360284.14		4881	0	3.5168	90000.125	9.30E-06	3.25111	0.0537923	0.002896189	1.25E-05	1.85618	0.008955	8.63326	0.02773	0.913314	8.89183	0	100	0	0	1				9.71E-07	26.78931	10.5697	0.000890831	0
4360478.34		4881	0	3.5168	90000.125	9.20E-06	3.24474	0.0533837	0.002911195	1.16E-05	1.84498	0.008936	8.65717	0.02573	1.03902	8.8781	0	100	0	0	1				9.75E-07	26.67549	10.5283	0.000897205	0
4360737		4881	0	3.5585	90000.125	9.20E-06	3.28317	0.0538261	0.002968687	1.15E-05	1.91315	0.009068	8.85988	0.02528	1.15303	9.07428	0	100	0	0	1				9.76E-07	26.63429	10.7792	0.000904213	0
4360840.2		4881	0	3.5586	90000.125	9.40E-06	3.28236	0.0542324	0.002973411	1.22E-05	1.91135	0.009064	8.86913	0.02714	1.52204	8.99463	0	100	0	0	1				9.86E-07	27.22284	10.7739	0.000905876	0
4360932.3		4881	0	3.5594	90000.125	9.30E-06	3.28579	0.05597455	0.002931602	8.43E-06	1.91646	0.009075	8.77641	0.01973	1.00391	9.06256	0.006876059	99.555	0	0	1				9.71E-07	26.98388	10.7964	0.000892205	0
4361185.3		4881	0	3.6004	90000.125	9.20E-06	3.32533	0.0564893	0.002991428	9.86E-06	1.98742	0.009234	8.98736	0.02307	1.29224	9.21409	0.004347185	99.7259	0	0	1				9.77E-07	27.18769	11.05782	0.000899588	0
4361464.06		4881	0	3.6502	90000.125	9.20E-06	3.369979	0.05969484	0.003034595	9.03E-06	2.06828	0.009428	9.16924	0.02113	0.829695	9.31418	0.008141145	99.4991	0	0	1				9.87E-07	30	11.3568	0.000900479	0
4361557.16		4881	0	3.6496	90000.125	9.30E-06	3.37596	0.0568683	0.003031774	1.26E-05	2.08107	0.00946	9.17542	0.02786	1.3917	9.28754	0	100	0	0	1				9.88E-07	27.94254	11.3971	0.000898047	0
[...]
4717114.31		4881	0	1.7673	10000.085	9.30E-06	1.76071	0.0337582	0.008735791	1.62E-05	0.231511	0.00335	20.6733	0.03789	0.732459	49.466	0.00274974	99.4956	0	0	1				4.20E-07	98.6759	3.10008	0.004961529	0
4717489.98		4881	0	1.7672	10000.085	9.40E-06	1.76088	0.0338614	0.008722743	1.64E-05	0.231554	0.00335	20.6428	0.03829	0.945629	49.3024	0.002296671	99.5783	0	0	1				4.20E-07	98.93201	3.100693	0.004953631	0
4718022.41		4881	0	1.81	10000.085	9.20E-06	1.80334	0.0339545	0.009003379	1.63E-05	0.245933	0.003333	21.3138	0.03815	0.479872	49.3181	0.00202356	99.639	0	0	1				4.34E-07	98.60474	3.25204	0.004992609	0
4718395.8		4881	0	1.8097	10000.085	9.30E-06	1.80384	0.0346854	0.00893711	1.62E-05	0.2461234	0.003333	21.159	0.038	1.00354	48.8009	0.002461516	99.5594	0	0	1				4.35E-07	98.63623	3.25385	0.004954486	0
4718766.58		4881	0	1.8098	10000.085	9.30E-06	1.80353	0.0345749	0.008948426	1.56E-05	0.246039	0.003333	21.1854	0.03659	0.961874	49.377	0.002689889	99.5232	0	0	1				4.31E-07	97.60183	3.25274	0.004961606	0
4719300.3		4881	0	1.8539	10000.085	9.40E-06	1.84757	0.0349121	0.00921561	1.76E-05	0.261938	0.003333	21.8265	0.04118	1.52238	48.8351	0.002236491	99.6123	0	0	1				4.49E-07	98.75391	3.41351	0.004987969	0
4719622.44		4881	0	1.8539	10000.085	9.30E-06	1.84794	0.0353918	0.009178072	1.96E-05	0.262126	0.003334	21.7388	0.04593	0.470859	48.7739	0.003016724	99.4782	0	0	1				4.48E-07	97.67015	3.4149	0.004966639	0
4719993.38		4881	0	1.8535	10000.085	9.30E-06	1.847799	0.0352673	0.009218558	1.75E-05	0.26206	0.003333	21.8335	0.04098	0.711607	48.616	0.002217289	99.61398	0	0	1				4.51E-07	97.54775	3.414361	0.00498894	0
4720519.19		4881	0	1.8968	10000.085	9.40E-06	1.890631	0.0353904	0.009513108	1.85E-05	0.278732	0.003506	22.5394	0.04329	1.13475	49.0547	0.002415719	99.5952	0	0	1				4.61E-07	97.23208	3.57449	0.00503171	0
4720893.38		4881	0	1.8971	10000.085	9.20E-06	1.89102	0.0363513	0.009488288	1.78E-05	0.278918	0.003508	22.4815	0.04167	0.93377	49.2106	0.002975871	99.5041	0	0	1				4.59E-07	98.10946	3.57594	0.005017559	0
4721267.61		4881	0	1.897	10000.085	9.40E-06	1.89094	0.0363435	0.009490766	1.82E-05	0.278882	0.003508	22.4873	0.04261	1.24563	48.98446	0.0031097	99.4791	0	0	1				4.61E-07	98.4212	3.57567	0.005019065	0
4721800.19		4881	0	1.9412	10000.085	9.20E-06	1.93455	0.0364555	0.009782183	1.94E-05	0.296924	0.00379	23.1872	0.04536	1.29461	49.244	0.003007224	99.5147	0	0	1				4.73E-07	97.96892	3.74247	0.005056575	0
4722173.47		4881	0	1.9412	10000.085	9.30E-06	1.93514	0.0371971	0.009802193	2.01E-05	0.2972107	0.003794	23.2343	0.04695	1.23293	49.2968	0.003222908	99.47972	0	0	1				4.74E-07	98.48793	3.74476	0.00506537	0
4722549.48		4881	0	1.9412	10000.085	9.20E-06	1.93505	0.0372169	0.009791864	2.03E-05	0.297165	0.003794	23.2101	0.04758	0.61444	49.0771	0.00288632	99.5326	0	0	1				4.75E-07	98.59366	3.74442	0.005060263	0
4723078.5		4881	0	1.9847	10000.085	9.20E-06	1.97858	0.0374523	0.0100036	1.84E-05	0.31634	0.004114	23.7248	0.04316	1.08166	48.7686	0.002791098	99.5632	0	0	1				4.89E-07	98.15426	3.91477	0.005055953	0
4723450.58		4881	0	1.9851	10000.085	9.30E-06	1.9789	0.0381138	0.009996945	1.85E-05	0.316548	0.004118	23.7094	0.04328	1.08056	49.0908	0.003367901	99.4766	0	0	1				4.85E-07	97.53713	3.91604	0.005051772	0
4723824.83		4881	0	1.9851	10000.085	9.40E-06	1.978769	0.038232	0.01000857	1.95E-05	0.316469	0.004116	23.7365	0.04564	0.512961	48.9553	0.002899586	99.5478	0	0	1				4.87E-07	98.18167	3.91553	0.005057978	0
4724354.22		4881	0	2.0282	10000.085	9.20E-06	2.0216	0.0385762	0.0101848	2.00E-05	0.336615	0.004444	24.1691	0.04674	0.930222	48.7513	0.003369187	99.4944	0	0	1				4.98E-07	97.91055	4.08687	0.005038009	0
4724724.23		4881	0	2.0282	10000.085	9.30E-06	2.02191	0.0391878	0.0101695	1.84E-05	0.336803	0.004448	24.1334	0.04305	0.808912	48.482	0.003338118	99.49727	0	0	1				5.00E-07	97.50253	4.08811	0.005029651	0
4725094.13		4881	0	2.0278	10000.085	9.40E-06	2.02183	0.0389544	0.0101942	1.81E-05	0.336749	0.004447	24.1911	0.04223	0.63507	48.3429	0.002950335	99.55351	0	0	1				5.03E-07	96.96406	4.08781	0.005042033	0
4725623.58		4881	0	2.0719	10000.085	9.30E-06	2.06551	0.0393202	0.0103694	2.01E-05	0.35869	0.004908	24.6232	0.04693	1.12373	48.1182	0.003578465	99.4794	0	0	1				5.14E-07	96.68585	4.26635	0.005020274	0
4725991.41		4881	0	2.0723	10000.085	9.20E-06	2.06578	0.0398162	0.0103874	2.00E-05	0.358864	0.004911	24.6655	0.04672	0.789729	47.9538	0.002788017	99.5929	0	0	1				5.16E-07	96.23635	4.26745	0.005028339	0
4726358.48		4881	0	2.0722	10000.085	9.40E-06	2.06592	0.0398312	0.0103716	2.06E-05	0.358942	0.004913	24.6285	0.04827	0.678783	48.014	0.003133801	99.5436	0	0	1				5.15E-07	95.90763	4.26803	0.005020335	0
4726882.2		4881	0	2.1152	10000.085	9.40E-06	2.1085	0.0401754	0.01054979	2.11E-05	0.381401	0.0053	25.0679	0.0493	1.38867	47.6531	0.003561131	99.49888	0	0	1				5.29E-07	96.02793	4.44575	0.005003469	0
4727245.58		4881	0	2.1149	10000.085	9.30E-06	2.10886	0.0406418	0.0105477	2.08E-05	0.381623	0.005303	25.0632	0.04875	0.852974	47.2616	0.002687299	99.6194	0	0	1				5.32E-07	95.30628	4.447294	0.005001609	0
4727605.97		4881	0	2.1151	10000.085	9.30E-06	2.10866	0.0405089	0.0105427	1.97E-05	0.381546	0.005302	25.0516	0.0461	0.716467	47.478	0.003135184	99.5579	0	0	1				5.30E-07	94.5232	4.44647	0.004999723	0
4728125		4881	0	2.1587	10000.085	9.30E-06	2.15248	0.0411304	0.010675	2.12E-05	0.405428	0.005393	25.38486	0.04954	0.911599	47.22	0.003746298	99.4928	0	0	1				5.40E-07	94.95593	4.63317	0.004959381	0
4728485.3		4881	0	2.159	10000.085	9.30E-06	2.15282	0.04174177	0.0106504	2.03E-05	0.405666	0.005391	25.3276	0.04738	0.831999	47.057	0.003679243	99.5016	0	0	1				5.41E-07	94.43993	4.63464	0.004947181	0
4728845.09		4881	0	2.159	10000.085	9.30E-06	2.15274	0.0416823	0.0106404	1.97E-05	0.40562	0.005392	25.3043	0.04598	0.698011	47.0321	0.004154223	99.437	0	0	1				5.41E-07	94.114	4.63429	0.004942746	0
4729361.88		4881	0	2.2029	10000.085	9.30E-06	2.20006	0.0423801	0.0106546	1.15E-05	0.432089	0.004877	25.3639	0.0268	1.07597	46.05997	0.004217028	99.4504	0	0	1				5.54E-07	94.06427	4.84026	0.004842885	0
4729713.39		4881	0	2.203	10000.085	9.40E-06	2.19802	0.0425225	0.0106718	1.13E-05	0.430975	0.004909	25.4029	0.02639	0.285933	45.8324	0.003431473	99.5492	0	0	1				5.57E-07	92.11994	4.8313	0.004855176	0
4730063.38		4881	0	2.203	10000.085	9.30E-06	2.19989	0.0424651	0.0106237	1.19E-05	0.432035	0.004878	25.2915	0.02781	0.400245	45.8116	0.003982436	99.4797	0	0	1				5.55E-07	91.6649	4.83951	0.0048292	0
4730567.66		4881	0	2.2461	10000.085	9.20E-06	2.24298	0.0431741	0.0106598	1.18E-05	0.456944	0.004056	25.4009	0.02764	0.733605	44.9684	0.003896865	99.5072	0	0	1				5.68E-07	91.62314	5.03097	0.004752519	0
4730912.11		4881	0	2.2463	10000.085	9.30E-06	2.24157	0.0433727	0.01067414	1.21E-05	0.456178	0.004082	25.4337	0.02838	0.7413147	44.85137	0.004073801	99.48185	0	0	1				5.70E-07	89.93676	5.02465	0.004761897	0
4731256.97		4881	0	2.2457	10000.085	9.30E-06	2.240911	0.0433277	0.0106727	1.28E-05	0.455791	0.004096	25.4299	0.02983	0.4689541	44.92507	0.004132634	99.4748	0	0	1				5.69E-07	89.70274	5.02168	0.004762656	0
4731757.45		4881	0	2.2903	10000.085	9.40E-06	2.28484	0.0447265	0.0103984	1.13E-05	0.482082	0.003283	24.8142	0.02635	1.679402	42.9327	0.004508679	99.4459	0	0	1				5.81E-07	89.85014	5.22051	0.004551018	0
4732044.25		4881	0	2.2898	10000.085	9.40E-06	2.28654	0.0442486	0.0103897	1.15E-05	0.483195	0.003255	24.7951	0.02683	0.138243	42.7073	0.003646391	99.5513	0	0	1				5.83E-07	85.86545	5.22824	0.004543869	0
4732372.88		4881	0	2.29	10000.085	9.30E-06	2.283982	0.0440993	0.0103885	1.17E-05	0.4816371	0.003294	24.7908	0.02747	0.3780627	42.8572	0.004302158	99.4705	0	0	1				5.81E-07	85.41467	5.21657	0.00454843	0
4732859.92		4881	0	2.3332	10000.085	9.40E-06	2.33229	0.0456544	0.010122	1.40E-05	0.511847	0.002834	24.1973	0.03267	1.47748	41.2187	0.004942071	99.4178	0	0	1				5.90E-07	85.71437	5.43958	0.004339933	0
4733135.78		4881	0	2.333	10000.085	9.30E-06	2.32869	0.0451392	0.0101482	1.51E-05	0.509609	0.002848	24.25641	0.0354	0.199112	40.9903	0.004497126	99.4639	0	0	1				5.95E-07	82.43747	5.42278	0.004357909	0
4733450.13		4881	0	2.3329	10000.085	9.30E-06	2.32779	0.0451211	0.0101268	1.46E-05	0.509066	0.002852	24.2057	0.03414	0.57548	40.93217	0.004219001	99.497	0	0	1				5.94E-07	81.98062	5.4186	0.004350391	0
4733922.19		4881	0	2.3769	10000.085	9.30E-06	2.37391	0.0468038	0.009764237	3.15E-05	0.538798	0.002801	23.3871	0.07361	9.40668	39.3208	0.006525005	99.2577	0	0	1				5.99E-07	81.86434	5.63546	0.004113142	0
4734225.05		4881	0	2.3773	10000.085	9.40E-06	2.37018	0.04623209	0.009769378	3.13E-05	0.536411	0.002795	23.3968	0.07313	9.85597	39.0259	0.006073403	99.3008	0	0	1				6.04E-07	78.64168	5.61776	0.004121786	0
4734527.75		4881	0	2.3771	10000.085	9.30E-06	2.373093	0.0462756	0.009749701	2.92E-05	0.538333	0.002799	23.3526	0.06821	3.85376	39.1844	0.006435113	99.26588	0	0	1				6.00E-07	78.05176	5.63157	0.004108436	0
4734985.23		4881	0	2.4213	10000.085	9.30E-06	2.41647	0.0549731	0.007512902	4.97E-05	0.567154	0.002954	18.1473	0.1162	40.9583	31.548	0.0145223	98.4587	0	0	1				5.84E-07	78.36881	5.83932	0.003109042	0
4735202.39		4881	0	2.4208	10000.085	9.40E-06	2.41607	0.0487012	0.007606885	4.98E-05	0.567187	0.002955	18.3673	0.1165	8.28652	31.05823	0.008147951	99.1165	0	0	1				5.96E-07	63.09606	5.83741	0.003148451	0
4735416.45		4881	0	2.4207	10000.085	9.40E-06	2.41549	0.0483079	0.007615577	5.03E-05	0.566798	0.002952	18.3872	0.1177	5.29522	30.9611	0.007408328	99.1934	0	0	1				5.98E-07	62.11646	5.834571	0.003152814	0
4735815.66		4881	0	2.4641	10000.085	9.40E-06	2.45911	0.05235013	0.006645404	1.70E-05	0.596995	0.003181	16.1472	0.03981	3.87494	26.2102	0.007476673	99.1933	0	0	1				6.21E-07	61.92228	6.04723	0.002702359	0
4735999.84		4881	0	2.464	10000.085	9.20E-06	2.45822	0.0481777	0.006651479	1.80E-05	0.596632	0.003178	16.1611	0.04208	1.03086	26.063	0.005865078	99.3636	0	0	1				6.24E-07	52.42034	6.04286	0.002705807	0
4736183.88		4881	0	2.4642	10000.085	9.40E-06	2.45856	0.0479547	0.006656041	1.71E-05	0.596862	0.00318	16.172	0.04005	2.39235	26.0835	0.005785036	99.3727	0	0	1				6.24E-07	52.12602	6.044538	0.002707288	0
4736550.98		4881	0	2.5082	10000.085	9.20E-06	2.502714	0.0504685	0.006240033	1.16E-05	0.629412	0.003367	15.2311	0.02715	2.11027	24.0886	0.006429255	99.3224	0	0	1				6.36E-07	52.1671	6.26358	0.002493306	0
4736723.27		4881	0	2.5083	10000.085	9.30E-06	2.50401	0.0486843	0.006242493	1.19E-05	0.630529	0.003371	15.238	0.02784	0.4500417	23.92076	0.004695837	99.503	0	0	1				6.40E-07	48.17725	6.27005	0.002493002	0
4736895.44		4881	0	2.508	10000.085	9.30E-06	2.5037	0.0485283	0.006232757	1.25E-05	0.6302983	0.00337	15.2149	0.02932	0.65526	23.978	0.005101016	99.4618	0	0	1				6.38E-07	47.84152	6.268528	0.002489416	0
4737247.39		4881	0	2.5507	10000.085	9.30E-06	2.5454	0.0505078	0.005991192	1.03E-05	0.662595	0.003503	14.682	0.02413	1.10343	22.7234	0.005541273	99.4314	0	0	1				6.49E-07	47.95608	6.47906	0.002353733	0
4737410.88		4881	0	2.5512	10000.085	9.40E-06	2.54453	0.0494266	0.006017133	1.03E-05	0.662067	0.003501	14.7422	0.02407	0.436009	22.6815	0.004684837	99.5165	0	0	1				6.53E-07	45.44671	6.47464	0.002364731	0
4737574.73		4881	0	2.5515	10000.085	9.40E-06	2.54377	0.0493218	0.00599998	1.12E-05	0.661463	0.003498	14.7014	0.02616	0.5085737	22.6809	0.005392839	99.4441	0	0	1				6.51E-07	45.36295	6.47076	0.002358696	0
4737915.22		4881	0	2.5948	10000.085	9.30E-06	2.58656	0.050838	0.005837978	9.06E-06	0.6959797	0.003645	14.3568	0.02121	1.1927	21.655	0.005224367	99.4747	0	0	1				6.66E-07	45.36181	6.69032	0.00225704	0
4738072.94		4881	0	2.595	10000.085	9.20E-06	2.58981	0.050215	0.005828144	1.03E-05	0.6987645	0.003658	14.3366	0.02402	0.838917	21.49	0.003930145	99.6043	0	0	1				6.70E-07	43.30997	6.70711	0.002250414	0
4738230.09		4881	0	2.5951	10000.085	9.30E-06	2.5899	0.0500897	0.005808872	1.02E-05	0.698891	0.003659	14.29165	0.02384	0.348966	21.675	0.006496639	99.3522	0	0	1				6.63E-07	42.97993	6.7076	0.002242891	0
4738564.84		4881	0	2.6381	10000.085	9.20E-06	2.63124	0.0514461	0.005693562	9.99E-06	0.733933	0.003841	14.0569	0.02337	1.12974	20.8761	0.006129153	99.4039	0	0	1				6.77E-07	43.34999	6.92344	0.00216383	0
4738718.27		4881	0	2.6376	10000.085	9.20E-06	2.63414	0.0511547	0.005689245	8.88E-06	0.736535	0.003857	14.0494	0.02078	0.553547	20.9216	0.005404382	99.4778	0	0	1				6.75E-07	41.75217	6.93868	0.002159814	0
4738872.77		4881	0	2.6378	10000.085	9.20E-06	2.632487	0.0513494	0.005679236	9.58E-06	0.735094	0.003848	14.0245	0.0224	0.619478	20.8316	0.00505115	99.5099	0	0	1				6.76E-07	41.84318	6.92999	0.002157365	0
4739202.56		4881	0	2.6816	10000.085	9.20E-06	2.67227	0.0522315	0.005598381	9.49E-06	0.770452	0.004084	13.8707	0.0222	0.388473	20.1307	0.005485015	99.4785	0	0	1				6.92E-07	41.66312	7.14101	0.002094993	0
4739351.8		4881	0	2.6817	10000.085	9.30E-06	2.67302	0.0518511	0.005592689	9.26E-06	0.771224	0.00409	13.8581	0.02168	0.437732	20.1325	0.005573152	99.4711	0	0	1				6.92E-07	40.26141	7.14505	0.002092272	0
4739500.72		4881	0	2.6817	10000.085	9.40E-06	2.67564	0.0518308	0.005587708	9.46E-06	0.773628	0.004109	13.8489	0.02213	0.594462	20.2044	0.005675591	99.4651	0	0	1				6.89E-07	40.26496	7.15903	0.002088367	0
4739828.63		4881	0	2.7261	10000.085	9.30E-06	2.71948	0.0531318	0.005514866	1.05E-05	0.8148078	0.004499	13.7196	0.02458	0.784971	19.6411	0.005809071	99.46838	0	0	1				7.02E-07	40.40886	7.39556	0.002027913	0
4739974.17		4881	0	2.7258	10000.085	9.40E-06	2.72129	0.0526888	0.005521674	9.13E-06	0.8166075	0.004519	13.7373	0.02135	0.403969	19.5581	0.004690421	99.56964	0	0	1				7.05E-07	39.2822	7.40542	0.002029065	0
4740118.28		4881	0	2.7259	10000.085	9.40E-06	2.71999	0.05248678	0.005514527	9.45E-06	0.815468	0.004506	13.7195	0.0221	0.396773	19.5382	0.00542392	99.5015	0	0	1				7.05E-07	39.11626	7.39835	0.002027406	0
4740439.66		4881	0	2.7683	10000.085	9.20E-06	2.76388	0.0536072	0.00543744	9.48E-06	0.85868	0.005031	13.5823	0.02219	0.802433	18.9618	0.005395909	99.5177	0	0	1				7.19E-07	39.07638	7.63902	0.001967324	0
4740579.28		4881	0	2.7692	10000.085	9.30E-06	2.76363	0.0531607	0.005447033	1.08E-05	0.858539	0.005029	13.6046	0.02515	0.417403	18.978	0.005537013	99.5047	0	0	1				7.20E-07	37.92352	7.63768	0.001970967	0
4740721.09		4881	0	2.7691	10000.085	9.40E-06	2.76273	0.0532918	0.005423993	9.82E-06	0.85762	0.005017	13.5498	0.02298	0.338789	18.903	0.005435636	99.5132	0	0	1				7.20E-07	37.95605	7.63267	0.001963273	0
4744058.23		4881	0	2.8133	10000.085	9.40E-06	2.806	0.0542421	0.005368786	9.70E-06	0.901952	0.005566	13.46491	0.0227	0.8467564	18.4063	0.004490463	99.60851	0	0	1				7.34E-07	37.80595	7.87362	0.001913326	0
4744195.55		4881	0	2.8125	10000.085	9.40E-06	2.80549	0.0539905	0.005397655	1.05E-05	0.901602	0.005562	13.5321	0.02463	0.780123	18.5473	0.005833003	99.4924	0	0	1				7.33E-07	36.81255	7.87075	0.001923965	0
4744336.63		4881	0	2.8132	10000.085	9.20E-06	2.81039	0.0544326	0.005363488	1.05E-05	0.906586	0.005621	13.4571	0.02456	0.591294	18.4046	0.00534743	99.536	0	0	1				7.34E-07	37.09463	7.89832	0.001908447	0
4744648.13		4881	0	2.8564	10000.085	9.20E-06	2.85129	0.0548848	0.005318351	1.08E-05	0.950258	0.006074	13.3952	0.02526	0.794827	17.99138	0.005482586	99.5361	0	0	1				7.48E-07	36.80925	8.129839	0.001865246	0
4744783.23		4881	0	2.8566	10000.085	9.20E-06	2.85021	0.0546142	0.005330106	1.07E-05	0.949233	0.006065	13.4217	0.02505	0.862325	18.0208	0.005304857	99.5506	0	0	1				7.48E-07	35.98276	8.123688	0.001870076	0
4744918.25		4881	0	2.8555	10000.085	9.30E-06	2.853459	0.0549288	0.005313898	1.14E-05	0.952825	0.006097	13.3873	0.02657	0.720156	18.11666	0.005800359	99.514	0	0	1				7.42E-07	36.04161	8.14223	0.001862265	0
4745228.39		4881	0	2.9	10000.085	9.40E-06	2.89478	0.05599946	0.005271546	1.07E-05	0.998102	0.006394	13.33352	0.02497	0.951719	17.7105	0.005805138	99.5251	0	0	1				7.56E-07	36.23332	8.37978	0.00182105	0
4745362		4881	0	2.9003	10000.085	9.40E-06	2.89326	0.0555121	0.005295872	1.17E-05	0.996472	0.006387	13.3888	0.02747	0.663756	17.6053	0.004816072	99.6018	0	0	1				7.63E-07	35.42106	8.370957	0.001830417	0
4745495.11		4881	0	2.9009	10000.085	9.30E-06	2.89576	0.05552423	0.005275462	1.05E-05	0.999218	0.006399	13.3438	0.02454	0.580527	17.5287	0.003198281	99.73612	0	0	1				7.63E-07	35.21067	8.385406	0.001821791	0
4745497.58	Error: Warning: Current field is 10000.085 Oe;
4745498.05	Error: but addenda was obtained at 20000.107 Oe.
4745933.42		4881	0	2.9998	10000.085	9.20E-06	2.9949	0.0581865	0.005177768	9.34E-06	1.11245	0.006527	13.2284	0.02186	1.1518	16.8518	0.005708323	99.5589	0	0	1				7.88E-07	51.55745	8.96943	0.001728862	0
4746079.05		4881	0	3.0012	10000.085	9.30E-06	2.99645	0.0576564	0.005160173	9.15E-06	1.11444	0.006526	13.1892	0.02141	0.461927	16.8831	0.006844936	99.474	0	0	1				7.85E-07	50.55547	8.97873	0.001722094	0
4746225.13		4881	0	3.0005	10000.085	9.40E-06	2.99403	0.0574036	0.005166402	9.36E-06	1.11151	0.006528	13.2009	0.0219	0.865483	16.8893	0.007984769	99.3843	0	0	1				7.86E-07	50.64918	8.96423	0.001725567	0
4746548.95		4881	0	3.1144	10000.085	9.30E-06	3.11049	0.0606668	0.005038531	8.75E-06	1.25571	0.006498	13.0459	0.02046	0.66513	16.0691	0.009178091	99.3406	0	0	1				8.16E-07	50.66794	9.67514	0.001619852	0
4746688.28		4881	0	3.1137	10000.085	9.30E-06	3.10767	0.05953	0.005076531	9.10E-06	1.25235	0.006493	13.1314	0.02129	0.818723	16.0692	0.007156152	99.4821	0	0	1				8.21E-07	48.20726	9.65761	0.00163355	0
4746828.72		4881	0	3.1145	10000.085	9.20E-06	3.10679	0.0595762	0.005087959	9.11E-06	1.25126	0.006491	13.1571	0.02131	1.11402	16.124	0.006644054	99.5197	0	0	1				8.19E-07	48.20767	9.65212	0.001637692	0
4747146.98		4881	0	3.2293	10000.085	9.30E-06	3.22122	0.0625229	0.004984672	9.47E-06	1.397528	0.006737	13.0617	0.02215	0.952108	15.4792	0.008152997	99.4469	0	0	1				8.48E-07	48.37198	10.3762	0.00154745	0
4747283.17		4881	0	3.229	10000.085	9.30E-06	3.21661	0.061743	0.005004832	9.84E-06	1.39172	0.006725	13.103	0.02302	1.21703	15.4014	0.006186714	99.5758	0	0	1				8.54E-07	46.43757	10.3466	0.001555935	0
4747419		4881	0	3.2293	10000.085	9.30E-06	3.22133	0.0617981	0.004984087	1.00E-05	1.39791	0.006738	13.0607	0.02339	0.91318	15.4181	0.005345645	99.6365	0	0	1				8.50E-07	46.20405	10.377	0.001547214	0
4747732.58		4881	0	3.3429	10000.085	9.40E-06	3.32965	0.0646695	0.004901425	9.05E-06	1.54669	0.007195	13.016	0.02117	0.842844	14.91	0.006806472	99.563	0	0	1				8.76E-07	46.25419	11.08656	0.001472055	0
4747865.66		4881	0	3.3434	10000.085	9.30E-06	3.32903	0.0637932	0.004904103	9.39E-06	1.545847	0.007191	13.0214	0.02197	0.647503	14.7959	0.005076347	99.6715	0	0	1				8.82E-07	44.73003	11.08246	0.001473131	0
4747995.67		4881	0	3.3423	10000.085	9.40E-06	3.329837	0.0636406	0.004873861	9.67E-06	1.54725	0.007197	12.9521	0.02264	0.8059203	14.8015	0.009538343	99.3853	0	0	1				8.79E-07	44.38774	11.0878	0.001463694	0
4748304.59		4881	0	3.4575	10000.085	9.30E-06	3.44311	0.0668828	0.004775612	9.43E-06	1.72092	0.008393	12.89585	0.02207	0.813392	14.3967	0.0110501	99.334	0	0	1				9.00E-07	44.40437	11.855	0.001387004	0
4748432.81		4881	0	3.4569	10000.085	9.30E-06	3.44126	0.0663345	0.00480004	1.01E-05	1.71807	0.00837	12.9502	0.02353	1.21741	14.34844	0.007055915	99.5717	0	0	1				9.05E-07	43.19024	11.84229	0.001394848	0
4748560.53		4881	0	3.4566	10000.085	9.30E-06	3.44725	0.0661561	0.004784468	1.07E-05	1.72772	0.008448	12.9234	0.02509	1.02935	14.3871	0.009511778	99.4275	0	0	1				9.02E-07	43.04532	11.8836	0.001387908	0
4748862.98		4881	0	3.5711	10000.085	9.30E-06	3.55177	0.0687887	0.00469282	1.01E-05	1.90051	0.009522	12.8817	0.02357	1.18571	13.83645	0.009617941	99.4459	0	0	1				9.35E-07	43.16117	12.6151	0.001321262	0
4748988.13		4881	0	3.5706	10000.085	9.30E-06	3.55297	0.0680908	0.004728415	1.02E-05	1.902761	0.009529	12.9673	0.02387	0.825473	13.8952	0.007508086	99.5676	0	0	1				9.36E-07	41.50935	12.6236	0.001330836	0
4749114.77		4881	0	3.5709	10000.085	9.40E-06	3.555352	0.0662318	0.004727454	1.33E-05	1.90798	0.009544	12.9702	0.02958	0.694276	13.75788	0	100	0	0	1				9.43E-07	41.68556	12.6405	0.001329673	0